File: Calculate-Module/ConsoleApp1/ConsoleApp1/bin/SiO2 1000nm_on_Si.dat
wavelength(nm)	AOI	Psi	Delta
210.487	65	40.2533	211.131
212.078	65	45.2717	204.373
213.669	65	49.2015	159.709
215.26	65	45.3699	114.249
216.851	65	41.1927	106.168
218.441	65	38.0022	115.801
220.032	65	35.61935	138.15
221.623	65	34.5631	166.428
223.213	65	35.7394	195.104
224.804	65	38.8114	212.915
226.394	65	43.18605	214.989
227.985	65	48.7619	193.55
229.575	65	50.2365	142.875
231.166	65	45.363	111.045
232.756	65	41.1162	103.951
234.346	65	38.0017	110.593
235.937	65	35.4893	125.982
237.527	65	33.7538	148.143
239.117	65	33.401	173.788
240.708	65	34.7858	197.778
242.298	65	37.6213	214.581
243.888	65	41.4156	221.431
245.478	65	46.1603	214.197
247.068	65	51.3411	184.4624
248.659	65	51.101	136.082
250.249	65	46.3676	109.403
251.839	65	42.8234	101.9274
253.429	65	40.1329	105.072
255.019	65	38.15366	115.891
256.609	65	36.7786	132.5696
258.199	65	35.8627	152.659
259.789	65	35.8948	174.226
261.379	65	36.7048	194.622
262.969	65	38.3311	211.544
264.559	65	40.4955	222.08
266.149	65	43.2579	224.372
267.739	65	46.5914	215.719
269.329	65	50.0178	191.833
270.919	65	50.7151	153.232
272.508	65	47.6963	122.859
274.098	65	44.6481	108.746
275.688	65	42.2627	105.48
277.278	65	40.3493	109.444
278.868	65	38.79089	118.74
280.458	65	37.4369	132.176
282.047	65	36.3528	148.179
283.637	65	35.7214	166.146
285.227	65	35.6867	184.553
286.817	65	36.2031	201.54
288.406	65	37.1879	215.817
289.996	65	38.682	226.6568
291.586	65	40.6681	232.45
293.175	65	43.30418	232.68
294.765	65	46.8019	226.073
296.355	65	51.2036	209.425
297.944	65	54.7039	179.52
299.534	65	53.2489	144.393
301.124	65	48.8449	120.874
302.713	65	44.6888	109.717
304.303	65	41.5155	106.097
305.893	65	38.878	107.32
307.482	65	36.7181	111.962
309.072	65	34.8689	119.702
310.661	65	33.1361	129.8232
312.251	65	31.7715	141.5831
313.84	65	30.718	154.923
315.43	65	30.1203	169.362
317.019	65	30.1349	183.812
318.609	65	30.6386	197.954
320.198	65	31.6394	210.348
321.788	65	32.9793	220.918
323.377	65	34.6994	229.358
324.967	65	36.7161	235.207
326.556	65	39.1693	237.905
328.146	65	42.1637	237.747
329.735	65	45.6435	233.535
331.325	65	49.952	223.983
332.914	65	54.7712	206.209
334.504	65	57.8259	177.464
336.093	65	55.8969	145.884
337.682	65	51.3561	124.896
339.272	65	47.0329	113.59
340.861	65	43.5757	108.083
342.45	65	40.8551	105.9
344.04	65	38.7195	106.33
345.629	65	36.8409	109.096
347.219	65	35.2162	113.732
348.808	65	33.9511	119.448
350.397	65	32.6984	127.087
351.986	65	31.4521	137.205
353.576	65	30.7036	147.174
355.165	65	30.1249	157.344
356.754	65	29.8856	168.561
358.344	65	30.0452	179.921
359.933	65	30.4397	191.6795
361.522	65	31.1115	202.973
363.111	65	32.1666	212.953
364.701	65	33.3438	221.327
366.29	65	34.5856	228.76
367.879	65	35.92115	234.664
369.468	65	37.45	239.459
371.057	65	39.195	242.087
372.647	65	41.1769	242.5
374.236	65	43.6069	240.901
375.825	65	46.5109	237.043
377.414	65	50.1062	229.404
379.003	65	53.9408	217.789
380.592	65	57.7013	198.886
382.181	65	59.3233	173.175
383.77	65	57.4245	148.67
385.359	65	53.5094	131.047
386.949	65	49.405	119.897
388.538	65	45.9335	113.239
390.127	65	42.8725	109.4615
391.716	65	40.313	108.137
393.305	65	38.0867	108.349
394.894	65	36.2136	109.873
396.483	65	34.4125	112.204
398.071	65	32.7954	115.914
399.66	65	31.262	120.486
401.249	65	29.8594	125.943
402.838	65	28.5899	132.156
404.4271	65	27.41	138.601
406.016	65	26.429	146.201
407.605	65	25.5769	154.414
409.194	65	24.8718	163.136
410.782	65	24.4625	171.72
412.371	65	24.3132	180.496
413.96	65	24.2607	189.412
415.549	65	24.6359	198.022
417.1375	65	25.0955	206.551
418.726	65	25.7089	213.744
420.315	65	26.4692	220.846
421.904	65	27.4436	227.264
423.492	65	28.4956	232.897
425.081	65	29.5572	237.624
426.669	65	30.8329	242.039
428.258	65	32.1697	245.494
429.847	65	33.5794	248.526
431.435	65	35.0086	250.253
433.024	65	36.2396	250.5278
434.612	65	38.0203	250.1478
436.201	65	40.9405	250.223
437.789	65	44.0526	249.884
439.377	65	46.9525	248.033
440.966	65	50.5365	244.045
442.554	65	54.9281	237.894
444.143	65	59.7521	228.444
445.731	65	64.5386	213.235
447.319	65	67.7671	189.853
448.907	65	67.559	160.0378
450.496	65	63.6277	136.416
452.084	65	58.7715	122.995
453.672	65	54.09285	114.789
455.26	65	49.7528	109.324
456.848	65	46.1278	105.896
458.436	65	43.1888	103.9978
460.024	65	40.5964	102.822
461.612	65	38.5211	102.525
463.2	65	36.48098	102.924
464.788	65	34.8046	104.122
466.376	65	33.3318	105.55
467.964	65	31.7061	107.818
469.552	65	30.3478	110.144
471.14	65	29.1332	113.144
472.727	65	27.9118	116.368
474.315	65	26.85693	120.095
475.903	65	25.8639	123.717
477.491	65	24.9415	128.074
479.078	65	23.9339	133.229
480.666	65	23.0733	138.42
482.253	65	22.4401	144.137
483.841	65	21.7524	149.998
485.428	65	21.1877	155.83
487.016	65	20.8045	162.216
488.603	65	20.3629	168.969
490.19	65	20.1974	175.648
491.778	65	20.201	182.221
493.365	65	20.2834	188.768
494.952	65	20.4725	195.234
496.539	65	20.7524	201.436
498.127	65	21.1063	207.519
499.714	65	21.5908	212.958
501.301	65	22.1951	217.98
502.888	65	22.95463	223.251
504.475	65	23.596	227.855
506.062	65	24.33168	231.816
507.648	65	25.2573	236.1012
509.235	65	26.1733	239.754
510.822	65	27.0653	242.755
512.409	65	28.051	245.818
513.995	65	29.0436	248.051
515.582	65	30.0828	250.3428
517.168	65	31.0136	251.784
518.755	65	32.25864	252.946
520.341	65	33.8129	254.8067
521.928	65	35.2482	256.0892
523.514	65	36.6175	256.584
525.1	65	38.2124	256.858
526.687	65	39.9079	256.765
528.273	65	41.9128	256.398
529.859	65	44.2682	255.493
531.445	65	47.064	253.982
533.031	65	50.0167	252.05
534.617	65	53.1578	248.964
536.203	65	56.5061	245.265
537.789	65	60.8196	240.153
539.375	65	65.38	232.227
540.96	65	69.4945	220.556
542.546	65	73.7997	199.442
544.131	65	74.8245	171.0872
545.717	65	72.3751	148.416
547.302	65	68.44059	130.058
548.888	65	64.1087	119.476
550.473	65	59.8508	112.752
552.058	65	56.0768	107.985
553.644	65	52.5353	105.188
555.229	65	49.3891	102.617
556.814	65	46.806	100.978
558.399	65	44.4031	100.035
559.984	65	42.092	99.2807
561.569	65	40.1785	98.9648
563.154	65	38.4006	98.7919
564.738	65	36.90147	98.8686
566.323	65	35.6033	99.4246
567.908	65	34.2859	100.104
569.492	65	33.1753	100.94
571.077	65	32.0547	101.872
572.661	65	31.01667	103.0941
574.245	65	30.0131	104.5919
575.83	65	29.14987	106.3435
577.414	65	28.2666	108.068
578.998	65	27.47493	109.642
580.582	65	26.5871	112.0223
582.166	65	25.65604	114.286
583.75	65	24.9654	116.576
585.333	65	24.249	119.336
586.917	65	23.5857	121.975
588.501	65	22.9649	124.992
590.084	65	22.2697	128.285
591.668	65	21.6112	131.035
593.251	65	21.1092	134.524
594.834	65	20.5932	138.228
596.418	65	20.0835	141.904
598.001	65	19.6863	146.024
599.584	65	19.2881	149.655
601.167	65	18.8063	153.452
602.75	65	18.5506	158.127
604.333	65	18.2768	162.204
605.915	65	18.1602	166.346
607.498	65	17.9785	170.927
609.08	65	17.8364	175.647
610.663	65	17.85433	180.623
612.245	65	17.8141	185.4911
613.828	65	18.0369	189.375
615.41	65	18.0677	193.817
616.992	65	18.3126	197.76
618.574	65	18.5046	201.76
620.156	65	18.8015	206.071
621.738	65	19.0931	210.214
623.319	65	19.3689	214.123
624.901	65	19.8524	217.309
626.483	65	20.262	220.721
628.064	65	20.6813	223.943
629.645	65	21.124	227.131
631.227	65	21.6375	229.984
632.808	65	22.1089	232.636
634.389	65	22.711	235.423
635.97	65	23.2633	237.817
637.551	65	23.8622	239.411
639.132	65	24.3893	241.856
640.712	65	24.8724	243.744
642.293	65	25.5506	245.847
643.873	65	26.3027	247.949
645.454	65	27.0217	249.695
647.034	65	27.6596	251.2574
648.614	65	28.3357	252.382
650.194	65	28.99918	253.315
651.774	65	29.7962	254.761
653.354	65	30.565	256.093
654.934	65	31.4215	256.89
656.514	65	32.3156	257.78
658.093	65	33.1967	258.6153
659.6729	65	34.2234	259.453
661.252	65	35.3064	259.972
662.832	65	36.12085	260.162
664.411	65	37.2961	260.472
665.99	65	38.6009	260.584
667.569	65	39.7701	260.386
669.148	65	40.9136	260.155
670.726	65	42.3985	259.994
672.305	65	43.9516	260.092
673.883	65	45.5877	259.226
675.462	65	47.6165	258.455
677.04	65	49.3112	258.007
678.618	65	51.4646	256.607
680.196	65	54.1959	254.867
681.774	65	56.82365	253.125
683.352	65	59.1087	251.028
684.93	65	62.0854	248.353
686.508	65	65.0443	245.111
688.085	65	67.9141	240.141
689.663	65	71.219	233.578
691.24	65	74.4365	223.307
692.817	65	76.7783	209.605
694.394	65	78.4853	192.736
695.971	65	78.7939	168.124
697.548	65	77.3419	146.85
699.125	65	74.5061	133.843
700.701	65	71.7341	122.927
702.278	65	68.7156	116.42
703.854	65	65.3816	112.26
705.43	65	62.3589	108.2815
707.006	65	59.9767	105.343
708.582	65	57.6262	103.2142
710.158	65	54.8113	101.075
711.734	65	53.2669	100.156
713.31	65	51.0629	99.5833
714.885	65	48.8452	97.8513
716.461	65	47.4578	97.3448
718.036	65	45.8788	96.8564
719.611	65	44.3853	96.6055
721.186	65	42.9244	96.0236
722.761	65	41.861	96.1441
724.336	65	40.3829	95.5636
725.911	65	39.4193	95.2376
727.485	65	38.5771	95.6347
729.06	65	37.1717	96.3284
730.634	65	36.08633	96.3049
732.208	65	35.3574	96.65506
733.782	65	34.6886	97.1936
735.356	65	33.8702	97.72226
736.93	65	33.1643	98.1922
738.504	65	32.4049	98.5374
740.077	65	31.6868	98.9234
741.651	65	31.1526	99.798
743.224	65	30.4423	100.699
744.797	65	29.8125	101.494
746.37	65	29.2266	102.421
747.943	65	28.528	102.867
749.516	65	28.0587	104.3455
751.089	65	27.3554	105.209
752.661	65	26.8899	106.1221
754.234	65	26.3226	107.801
755.806	65	25.7822	108.656
757.378	65	25.3533	109.701
758.95	65	24.8456	111.322
760.522	65	24.5249	112.709
762.094	65	23.96851	114.145
763.666	65	23.6195	115.326
765.237	65	23.1149	116.773
766.809	65	22.7216	118.26
768.38	65	22.4106	119.578
769.951	65	21.9615	121.222
771.522	65	21.6134	123.946
773.093	65	21.171	125.093
774.664	65	20.6941	126.609
776.234	65	20.3573	128.7399
777.805	65	19.8525	130.687
779.375	65	19.4494	133.223
780.946	65	19.4476	135.168
782.516	65	19.1582	137.1613
784.086	65	18.7403	139.982
785.656	65	18.3435	142.362
787.225	65	17.997	143.669
788.795	65	17.87	146.231
790.364	65	17.8012	148.679
791.934	65	17.5361	150.64
793.503	65	17.3242	153.732
795.072	65	17.0247	155.987
796.641	65	17.0359	158.341
798.21	65	16.9119	161.589
799.779	65	16.7003	164.423
801.347	65	16.5047	167.208
802.916	65	16.249	169.295
804.484	65	16.7026	171.165
806.0521	65	16.2777	174.0537
807.62	65	16.23805	177.578
809.188	65	16.0554	180.4659
810.756	65	16.3907	182.37
812.324	65	16.5284	184.493
813.891	65	16.4118	188.031
815.458	65	16.5259	191.004
817.026	65	16.5252	193.187
818.593	65	16.5675	195.003
820.16	65	16.6156	198.712
821.727	65	16.7438	202.836
823.294	65	17.0872	204.095
824.86	65	17.2789	204.912
826.427	65	17.4387	207.208
827.993	65	17.5181	208.794
829.559	65	17.502	210.857
831.125	65	17.8173	213.297
832.692	65	17.9636	216.282
834.257	65	18.2971	216.9649
835.823	65	18.4021	219.158
837.389	65	18.81381	221.599
838.954	65	19.1824	223.016
840.52	65	19.2906	225.102
842.085	65	19.5796	226.454
843.65	65	19.6671	228.489
845.215	65	20.3059	229.948
846.78	65	20.7783	231.988
848.345	65	20.9793	233.633
849.909	65	21.2444	234.0143
851.474	65	21.622	237.219
853.038	65	22.0856	238.559
854.602	65	22.20499	239.904
856.166	65	22.5361	240.619
857.73	65	22.6219	241.241
859.294	65	23.1282	241.774
860.858	65	23.5396	243.797
862.422	65	23.8088	245.265
863.985	65	24.007	245.526
865.549	65	24.572	246.4547
867.112	65	24.8797	247.818
868.675	65	25.187	250.363
870.238	65	25.69907	250.41
871.801	65	25.99317	251.41
873.364	65	26.3563	252.423
874.926	65	26.5828	252.357
876.489	65	26.9394	251.871
878.051	65	27.3927	253.215
879.614	65	28.0718	256.0152
881.176	65	28.37888	256.954
882.738	65	28.5631	257.274
884.3	65	28.5059	256.023
885.862	65	29.0242	256.651
887.424	65	29.8325	257.986
888.985	65	30.1949	258.707
890.547	65	30.475	259.128
892.108	65	30.6911	259.576
893.67	65	31.4569	259.722
895.231	65	32.199	260.014
896.792	65	32.5231	260.409
898.353	65	32.8236	261.226
899.914	65	33.1368	260.307
901.474	65	34.026	261.325
903.035	65	35.2318	263.424
904.596	65	35.4385	262.763
906.156	65	35.4854	262.251
907.716	65	36.1443	261.939
909.277	65	36.4294	261.939
910.837	65	37.4241	262.389
912.397	65	38.3689	263.077
913.957	65	39.388	263.678
915.517	65	39.76685	262.988
917.076	65	40.5153	263.054
918.636	65	41.3944	263.287
920.196	65	41.9542	263.124
921.755	65	42.9588	262.885
923.314	65	43.6125	262.301
924.873	65	43.9535	262.941
926.433	65	44.3273	261.591
927.992	65	45.4275	260.839
929.551	65	47.6882	261.011
931.109	65	48.0047	260.951
932.668	65	48.8543	260.377
934.227	65	50.8701	260.9592
935.786	65	51.87722	259.409
937.344	65	53.4568	259.561
938.903	65	54.9663	258.109
940.461	65	56.7044	258.196
942.019	65	58.0932	257.928
943.577	65	58.0604	255.051
945.135	65	58.6205	254.961
946.693	65	61.036	254.444
948.251	65	63.3055	253.414
949.809	65	64.1986	253.243
951.367	65	64.7989	250.237
952.925	65	67.2548	247.406
954.482	65	69.5513	245.507
956.04	65	70.2016	243.408
957.597	65	70.611	239.252
959.155	65	73.7196	234.59
960.712	65	75.1145	231.705
962.269	65	76.6293	223.529
963.826	65	77.2191	217.369
965.383	65	79.2255	205.744
966.941	65	80.4131	193.259
968.497	65	80.8993	181.155
970.054	65	79.2239	163.809
971.611	65	78.7982	144.953
973.168	65	78.395	133.57
974.725	65	76.1669	124.761
976.281	65	74.4441	120.215
977.838	65	73.5917	118.829
979.395	65	72.706	115.7666
980.951	65	71.773	112.883
982.508	65	70.31488	111.014
984.064	65	68.3152	111.899
985.62	65	65.879	109.148
987.177	65	64.4691	106.249
988.733	65	62.4608	102.767