File: Calculate-Module/ConsoleApp1/ConsoleApp1/SiO2 2nm_on_Si.dat
wavelength(nm)	AOI	Psi	Delta
210.487	65	37.2608	117.255
212.078	65	36.9651	117.119
213.669	65	37.0855	117.764
215.26	65	36.9667	118.224
216.851	65	36.9362	118.794
218.441	65	36.79829	119.01
220.032	65	36.9435	119.761
221.623	65	36.8908	120.286
223.213	65	36.7713	120.998
224.804	65	36.8162	121.25
226.394	65	36.7637	121.66
227.985	65	36.5564	122.384
229.575	65	36.2368	123.0035
231.166	65	36.0675	123.542
232.756	65	35.8269	123.498
234.346	65	35.51054	123.576
235.937	65	35.4526	123.73
237.527	65	35.4278	123.7532
239.117	65	35.5206	123.807
240.708	65	35.6571	124.244
242.298	65	35.7979	124.306
243.888	65	35.9383	124.941
245.478	65	36.1458	124.855
247.068	65	36.30835	125.305
248.659	65	36.4951	125.815
250.249	65	36.6033	126.214
251.839	65	36.8442	126.898
253.429	65	36.8921	127.348
255.019	65	37.0827	128.018
256.609	65	37.1079	128.656
258.199	65	37.24324	129.341
259.789	65	37.3937	130.0475
261.379	65	37.4367	130.985
262.969	65	37.4937	131.585
264.559	65	37.5406	132.601
266.149	65	37.6301	133.565
267.739	65	37.6368	134.4664
269.329	65	37.7122	135.474
270.919	65	37.6615	136.492
272.508	65	37.6728	137.492
274.098	65	37.6322	138.585
275.688	65	37.5834	139.7011
277.278	65	37.4345	140.807
278.868	65	37.24229	141.838
280.458	65	37.08	142.761
282.047	65	36.89566	143.689
283.637	65	36.7209	144.705
285.227	65	36.5551	145.836
286.817	65	36.3089	146.95
288.406	65	35.9547	147.901
289.996	65	35.5534	148.848
291.586	65	35.1551	149.639
293.175	65	34.7211	150.284
294.765	65	34.2855	150.81
296.355	65	33.9208	151.172
297.944	65	33.5248	151.474
299.534	65	33.1601	151.684
301.124	65	32.8501	151.91
302.713	65	32.5811	151.9429
304.303	65	32.27758	152.06
305.893	65	32.0404	152.2207
307.482	65	31.8772	152.331
309.072	65	31.682	152.471
310.661	65	31.5173	152.57
312.251	65	31.3482	152.564
313.84	65	31.2931	152.829
315.43	65	31.1249	152.933
317.019	65	30.9954	153.032
318.609	65	30.8578	153.089
320.198	65	30.7781	153.203
321.788	65	30.684	153.419
323.377	65	30.6526	153.507
324.967	65	30.5302	153.661
326.556	65	30.4686	153.806
328.146	65	30.4159	153.9146
329.735	65	30.3458	154.096
331.325	65	30.2937	154.311
332.914	65	30.2728	154.573
334.504	65	30.187	154.686
336.093	65	30.1696	154.839
337.682	65	30.1836	154.943
339.272	65	30.074	155.227
340.861	65	30.1596	155.448
342.45	65	30.0687	155.575
344.04	65	30.086	155.846
345.629	65	30.0837	155.835
347.219	65	30.1473	156.198
348.808	65	30.089	156.393
350.397	65	30.1722	156.737
351.986	65	30.3141	157.038
353.576	65	30.3925	157.366
355.165	65	30.44766	157.591
356.754	65	30.5374	158.12
358.344	65	30.7095	158.6631
359.933	65	30.8718	159.241
361.522	65	30.9494	159.9928
363.111	65	31.0131	160.967
364.701	65	31.1191	162.09
366.29	65	31.0364	163.156
367.879	65	30.9647	164.172
369.468	65	30.7633	165.204
371.057	65	30.5935	166.354
372.647	65	30.3379	167.165
374.236	65	30.0766	167.896
375.825	65	29.7523	168.827
377.414	65	29.4447	169.391
379.003	65	29.1651	169.9473
380.592	65	28.8281	170.392
382.181	65	28.4887	170.804
383.77	65	28.273	171.145
385.359	65	27.9596	171.604
386.949	65	27.6796	171.789
388.538	65	27.3918	172.0329
390.127	65	27.0898	172.349
391.716	65	26.8943	172.533
393.305	65	26.7343	172.559
394.894	65	26.4452	172.755
396.483	65	26.3006	172.999
398.071	65	26.076	173.011
399.66	65	25.8814	173.203
401.249	65	25.7156	173.198
402.838	65	25.5109	173.2812
404.4271	65	25.3554	173.354
406.016	65	25.2215	173.443
407.605	65	25.0191	173.56
409.194	65	24.8549	173.627
410.782	65	24.7418	173.595
412.371	65	24.5878	173.545
413.96	65	24.5355	173.721
415.549	65	24.4447	173.923
417.1375	65	24.2471	173.834
418.726	65	24.1124	174.025
420.315	65	24.0125	173.99
421.904	65	23.9227	174.101
423.492	65	23.8041	174.146
425.081	65	23.694	174.079
426.669	65	23.5757	174.199
428.258	65	23.4835	174.297
429.847	65	23.3658	174.555
431.435	65	23.2318	174.377
433.024	65	23.2107	174.514
434.612	65	23.1701	174.681
436.201	65	23.0681	174.737
437.789	65	22.92728	174.551
439.377	65	22.7724	174.703
440.966	65	22.642	174.7261
442.554	65	22.5543	174.776
444.143	65	22.4687	174.834
445.731	65	22.4124	174.756
447.319	65	22.3569	174.972
448.907	65	22.2568	174.944
450.496	65	22.1826	174.964
452.084	65	22.0817	175.099
453.672	65	21.9804	174.9839
455.26	65	21.8783	175.067
456.848	65	21.8538	175.099
458.436	65	21.7669	175.055
460.024	65	21.6592	175.13
461.612	65	21.6269	175.276
463.2	65	21.5192	175.328
464.788	65	21.498	175.302
466.376	65	21.4856	175.36
467.964	65	21.3492	175.489
469.552	65	21.2946	175.458
471.14	65	21.2335	175.468
472.727	65	21.099	175.495
474.315	65	21.0657	175.438
475.903	65	21.0332	175.444
477.491	65	21.0349	175.464
479.078	65	20.8587	175.438
480.666	65	20.81234	175.49
482.253	65	20.7862	175.576
483.841	65	20.7398	175.498
485.428	65	20.6581	175.599
487.016	65	20.6253	175.6665
488.603	65	20.5346	175.617
490.19	65	20.4367	175.65
491.778	65	20.4524	175.7
493.365	65	20.4237	175.714
494.952	65	20.3322	175.785
496.539	65	20.25865	175.769
498.127	65	20.19949	175.757
499.714	65	20.1997	175.717
501.301	65	20.1712	175.781
502.888	65	20.116	175.75
504.475	65	20.0739	175.892
506.062	65	20.0394	175.83
507.648	65	20.0021	175.779
509.235	65	19.9658	175.866
510.822	65	19.9395	175.944
512.409	65	19.85055	175.908
513.995	65	19.8532	175.922
515.582	65	19.7266	175.895
517.168	65	19.6778	175.892
518.755	65	19.6748	176.067
520.341	65	19.6883	175.9516
521.928	65	19.6239	175.921
523.514	65	19.5523	175.95
525.1	65	19.5614	176.07
526.687	65	19.5387	175.986
528.273	65	19.4551	176.16
529.859	65	19.4662	176.014
531.445	65	19.35	176.005
533.031	65	19.3093	176.145
534.617	65	19.2856	176.107
536.203	65	19.2271	176.152
537.789	65	19.2148	176.178
539.375	65	19.142	176.187
540.96	65	19.1541	176.133
542.546	65	19.1401	175.971
544.131	65	19.06673	176.039
545.717	65	19.0821	176.222
547.302	65	18.9965	176.14
548.888	65	19.0042	176.164
550.473	65	19.015	176.272
552.058	65	18.9711	176.226
553.644	65	18.87904	176.274
555.229	65	18.853	176.3528
556.814	65	18.8315	176.176
558.399	65	18.8098	176.292
559.984	65	18.7597	176.29
561.569	65	18.79126	176.275
563.154	65	18.67182	176.343
564.738	65	18.6649	176.388
566.323	65	18.6771	176.225
567.908	65	18.6534	176.27
569.492	65	18.66972	176.373
571.077	65	18.5862	176.327
572.661	65	18.5682	176.359
574.245	65	18.5548	176.495
575.83	65	18.5726	176.359
577.414	65	18.5695	176.346
578.998	65	18.5577	176.462
580.582	65	18.3873	176.459
582.166	65	18.3911	176.508
583.75	65	18.3972	176.555
585.333	65	18.3409	176.586
586.917	65	18.3383	176.6252
588.501	65	18.3201	176.531
590.084	65	18.2952	176.5047
591.668	65	18.1676	176.446
593.251	65	18.1659	176.558
594.834	65	18.2904	176.666
596.418	65	18.1894	176.656
598.001	65	18.2809	176.652
599.584	65	18.068	176.57
601.167	65	18.082	176.367
602.75	65	18.1146	176.488
604.333	65	17.99155	176.5
605.915	65	18.0884	176.6245
607.498	65	18.1032	176.749
609.08	65	18.0313	176.587
610.663	65	18.0542	176.708
612.245	65	17.9717	176.7924
613.828	65	17.90439	176.712
615.41	65	17.9905	176.7805
616.992	65	17.9576	176.644
618.574	65	17.8908	176.582
620.156	65	17.8819	176.926
621.738	65	17.9393	176.8112
623.319	65	17.8092	176.629
624.901	65	17.84687	176.81
626.483	65	17.83289	176.832
628.064	65	17.8184	176.831
629.645	65	17.8239	176.804
631.227	65	17.8383	176.772
632.808	65	17.7248	176.76
634.389	65	17.6887	176.781
635.97	65	17.7155	176.955
637.551	65	17.74	177.002
639.132	65	17.7021	176.654
640.712	65	17.7146	176.784
642.293	65	17.7155	176.9055
643.873	65	17.4964	176.837
645.454	65	17.5146	176.865
647.034	65	17.6173	176.854
648.614	65	17.5863	176.893
650.194	65	17.68796	176.937
651.774	65	17.5082	176.763
653.354	65	17.5058	176.885
654.934	65	17.5541	176.879
656.514	65	17.58012	177.055
658.093	65	17.4585	176.889
659.6729	65	17.4936	177.1467
661.252	65	17.41873	177.081
662.832	65	17.4529	176.861
664.411	65	17.5047	177.019
665.99	65	17.4996	176.918
667.569	65	17.3998	176.974
669.148	65	17.24408	177.116
670.726	65	17.3369	176.89
672.305	65	17.3409	176.964
673.883	65	17.399	177.035
675.462	65	17.4433	177.159
677.04	65	17.248	177.125
678.618	65	17.3237	177.19
680.196	65	17.3744	177.214
681.774	65	17.2009	177.101
683.352	65	17.1934	177.039
684.93	65	17.1578	177.031
686.508	65	17.2872	177.23
688.085	65	17.2119	177.24
689.663	65	17.09285	177.186
691.24	65	17.162	177.216
692.817	65	17.0631	177.396
694.394	65	17.1724	176.942
695.971	65	17.1876	177.038
697.548	65	17.1414	177.085
699.125	65	17.1133	177.141
700.701	65	17.1464	177.428
702.278	65	16.9856	177.289
703.854	65	17.0705	177.121
705.43	65	17.0476	177.325
707.006	65	17.088	177.397
708.582	65	17.0317	177.28
710.158	65	16.896	177.2
711.734	65	17.0433	177.324
713.31	65	17.1052	177.459
714.885	65	16.9129	177.198
716.461	65	17.0015	177.075
718.036	65	17.0648	177.35
719.611	65	16.9057	177.347
721.186	65	17.1129	177.272
722.761	65	17.10865	177.364
724.336	65	16.9174	176.932
725.911	65	16.7612	177.266
727.485	65	16.9619	177.618
729.06	65	16.9216	177.66
730.634	65	16.8831	177.443
732.208	65	16.8077	177.209
733.782	65	16.8286	177.381
735.356	65	16.8599	177.291
736.93	65	16.95775	177.395
738.504	65	16.9633	177.66
740.077	65	16.7964	177.41
741.651	65	16.75701	177.251
743.224	65	16.87348	177.416
744.797	65	16.7913	177.461
746.37	65	16.7903	177.345
747.943	65	16.65391	177.216
749.516	65	16.7027	177.479
751.089	65	16.7294	177.5578
752.661	65	16.6068	177.492
754.234	65	16.7927	177.4429
755.806	65	16.6509	177.41
757.378	65	16.6766	177.278
758.95	65	16.6728	177.486
760.522	65	16.836	177.655
762.094	65	16.7117	177.574
763.666	65	16.641	177.451
765.237	65	16.59222	177.429
766.809	65	16.5829	177.335
768.38	65	16.68285	177.709
769.951	65	16.619	177.814
771.522	65	16.7063	177.791
773.093	65	16.5955	177.284
774.664	65	16.5301	177.241
776.234	65	16.475	177.429
777.805	65	16.4448	177.6
779.375	65	16.4313	177.868
780.946	65	16.6532	177.62
782.516	65	16.6311	177.427
784.086	65	16.6495	177.442
785.656	65	16.4419	177.734
787.225	65	16.3406	177.592
788.795	65	16.4543	177.471
790.364	65	16.5678	177.509
791.934	65	16.7871	177.681
793.503	65	16.5499	177.826
795.072	65	16.4272	177.785
796.641	65	16.6163	177.491
798.21	65	16.5143	177.498
799.779	65	16.4458	177.634
801.347	65	16.2775	177.666
802.916	65	16.3467	177.389
804.484	65	16.6805	177.758
806.0521	65	16.3616	177.862
807.62	65	16.2743	177.484
809.188	65	16.3781	177.396
810.756	65	16.5436	177.9269
812.324	65	16.6483	177.834
813.891	65	16.2602	177.727
815.458	65	16.3118	177.688
817.026	65	16.3871	177.72
818.593	65	16.4682	177.617
820.16	65	16.24559	177.558
821.727	65	16.1039	177.531
823.294	65	16.3754	178.045
824.86	65	16.4566	177.972
826.427	65	16.292	177.805
827.993	65	16.3645	177.788
829.559	65	16.2532	177.86
831.125	65	16.3182	177.604
832.692	65	16.1665	177.732
834.257	65	16.5038	177.66
835.823	65	16.2962	177.59
837.389	65	16.0979	177.909
838.954	65	16.38674	177.8741
840.52	65	16.4364	177.544
842.085	65	16.2625	177.899
843.65	65	16.1718	177.6676
845.215	65	16.2236	177.767
846.78	65	16.268	177.853
848.345	65	16.3076	177.871
849.909	65	16.4375	178.053
851.474	65	16.1659	178.11
853.038	65	16.3242	177.578
854.602	65	16.314	177.912
856.166	65	16.0556	177.663
857.73	65	16.3521	177.9639
859.294	65	16.1554	177.891
860.858	65	16.3529	177.7153
862.422	65	16.1022	177.754
863.985	65	16.22821	177.905
865.549	65	16.4343	177.92
867.112	65	16.1965	178.101
868.675	65	15.8762	177.876
870.238	65	15.9189	177.663
871.801	65	16.1037	177.816
873.364	65	16.0681	177.704
874.926	65	16.1328	177.801
876.489	65	16.3486	177.908
878.051	65	16.2585	178.198
879.614	65	16.0324	177.761
881.176	65	15.9259	177.705
882.738	65	16.0233	177.938
884.3	65	16.2397	177.709
885.862	65	16.3052	177.94
887.424	65	16.0544	178.46
888.985	65	15.883	178.212
890.547	65	15.5443	177.6264
892.108	65	15.7766	178.048
893.67	65	16.05	178.01
895.231	65	16.2497	178.194
896.792	65	16.2928	178.223
898.353	65	16.0073	178.194
899.914	65	15.9756	178.0616
901.474	65	16.1729	178.078
903.035	65	15.99763	177.608
904.596	65	15.9049	177.544
906.156	65	15.6498	177.882
907.716	65	15.9706	178.067
909.277	65	15.9718	178.34
910.837	65	15.7616	178.077
912.397	65	15.8209	177.606
913.957	65	15.9438	177.44
915.517	65	16.2284	177.81
917.076	65	16.0577	178.248
918.636	65	16.0015	178.507
920.196	65	15.8795	178.408
921.755	65	16.0235	178.115
923.314	65	16.2131	178.387
924.873	65	16.0387	177.935
926.433	65	15.9821	178.101
927.992	65	15.8653	177.804
929.551	65	16.1041	177.73
931.109	65	16.1241	178.246
932.668	65	16.009	178.163
934.227	65	15.729	178.08
935.786	65	15.7694	178.0878
937.344	65	15.8902	177.969
938.903	65	16.0008	177.97
940.461	65	15.8136	178.217
942.019	65	15.8908	177.859
943.577	65	15.8334	177.969
945.135	65	16.0817	178.1915
946.693	65	15.7648	177.6877
948.251	65	15.959	177.678
949.809	65	15.9148	178.453
951.367	65	16.011	177.938
952.925	65	15.8442	177.986
954.482	65	15.812	178.169
956.04	65	15.6991	178.2325
957.597	65	15.83954	178.117
959.155	65	16.048	177.949
960.712	65	16.0874	177.65
962.269	65	15.971	177.914
963.826	65	15.6405	178.534
965.383	65	15.5789	177.878
966.941	65	15.6787	178.115
968.497	65	16.01433	178.001
970.054	65	16.1613	178.045
971.611	65	15.814	178.078
973.168	65	15.6192	177.723
974.725	65	15.7681	177.944
976.281	65	15.8351	177.487
977.838	65	15.9846	178.127
979.395	65	15.7564	178.0645
980.951	65	15.5769	178.629
982.508	65	15.6311	178.018
984.064	65	15.6433	178.252
985.62	65	15.6968	177.652
987.177	65	15.8119	178.2534
988.733	65	15.7785	178.387